wavelength / nm,EQE / %
300,0
306,0
310,12
326,18
350,28
364,36
392,45
423,50
458,56
492,65
507,73
531,84
559,91
622,95
682,93
726,91
747,89
767,90
792,87
821,78
826,68
831,57
836,48
842,40
846,33
851,24
856,18
863,9
877,3
898,0
946,0
991,0
1000,0
1038,0
1100,0
1142,0
1185,0
1200,0
1249,0
1274,0
1296,0
1300,0
1329,0
1363,0
1385,0
1400,0
