wavelength / nm,EQE / %
301,1.42E-14
334,2.55E+00
361,1.29E+01
382,2.95E+01
396,4.12E+01
419,5.17E+01
467,6.32E+01
503,7.53E+01
543,9.19E+01
614,9.56E+01
667,9.69E+01
748,9.58E+01
811,9.33E+01
872,9.05E+01
937,8.47E+01
972,7.72E+01
992,6.90E+01
1006,6.12E+01
1017,5.30E+01
1026,4.58E+01
1037,3.88E+01
1046,3.06E+01
1061,2.30E+01
1072,1.60E+01
1092,7.52E+00
1131,2.01E+00
1174,0.00E+00
1206,0.00E+00
1236,0.00E+00
1380,0.00E+00
1500,0.00E+00
