wavelength / nm,EQE / %
300,0
340,4
352,9
367,17
374,23
383,30
391,36
399,42
413,49
437,56
452,60
473,65
492,71
506,76
521,83
533,89
552,94
594,96
633,96
674,97
708,96
749,96
784,94
827,94
861,92
899,89
929,86
957,82
980,75
994,69
1008,61
1014,55
1024,49
1033,41
1043,34
1052,28
1061,22
1071,18
1083,11
1097,7
1118,0
1149,0
1172,0
1201,0
1247,0
1324,0
1358,0
1396,0
1400,0
